File: sneha_data.csv
n2_id,x_n2,y_n2,ra_n2,dec_n2,mag_n2,n2_err,apert_n2,cps,correct_cps,mag_n2_correc,n2-v_1,xcd_n2,ycd_n2,r_n2,phi_n2,theta_n2,age,log(Z),mass,logl,logt,logg,phase,composition,log(weight),V,U,B,R,I,FUV,NUV,caf2,baf2,sapph,silica,nuv_silica,b15,b13,b4,n2,aFUV,aNUV,aV,aI,fuv-nuv,fuv-v,nuv-v,fuv-i,nuv-i,acaf2,an2,asapph,caf2-n2,sapph-n2,caf2-sapph,caf2-v,sapph-v,n2-v_2,V-I,Separation
110,757.489,1198.783,13.3663,-26.6587,19.135,0.037,18.935,0.102329,0.102512,18.933,2.529,2.3701,-0.6765,2.4647,344.0695,254.0695,9.35,-2.9208,1.34493,1.2146,3.7965,3.4832,0,0.4787,-3.8753,1.744,2.85,2.051,1.65,1.618,10.591,5.087,10.87,10.217,9.888,8.368,4.824,5.308,4.963,4.461,4.229,25.359,19.855,16.512,16.386,5.504,8.847,3.343,8.973,3.469,25.638,18.997,24.656,6.641,5.659,0.982,9.126,8.144,2.485,0.126,0.0776655
3715,2236.498,2402.562,13.1337,-26.5836,19.661,0.062,19.461,0.0630376,0.063107,19.46,2.198,0.447,-0.8408,0.9523,297.9969,207.9969,9.7,-2.9208,1.06313,0.8723,3.8297,3.856,0,0.4787,-3.2652,2.558,3.601,2.778,2.52,2.535,9.793,5.501,9.953,9.408,9.082,7.729,5.292,5.677,5.377,4.974,4.78,24.561,20.269,17.326,17.303,4.292,7.235,2.943,7.258,2.966,24.721,19.548,23.85,5.173,4.302,0.871,7.395,6.524,2.222,0.023,0.0912149
158,2142.953,1341.085,13.19081,-26.6961,20.561,0.072,20.361,0.0275169,0.0275301,20.36,2.093,0.1708,-0.4536,0.4847,290.6351,200.6351,9.75,-2.9208,0.971731,0.493,3.8458,4.2608,0,0.4787,-2.93,3.509,4.516,3.698,3.485,3.516,10.106,6.246,10.235,9.728,9.404,8.128,6.058,6.402,6.123,5.762,5.59,24.874,21.014,18.277,18.284,3.86,6.597,2.737,6.59,2.73,25.003,20.358,24.172,4.645,3.814,0.831,6.726,5.895,2.081,-0.007,0.0121656
2032,2177.619,2169.416,13.151,-26.6069,19.722,0.07,19.522,0.0595937,0.0596556,19.521,2.09,0.5564,-0.4484,0.7146,321.1318,231.1318,9.65,-2.9208,1.0837,0.8288,3.8619,4.0365,0,0.4787,-3.0235,2.649,3.672,2.786,2.665,2.712,8.763,5.321,8.874,8.413,8.092,6.94,5.15,5.468,5.198,4.869,4.71,23.531,20.089,17.417,17.48,3.442,6.114,2.672,6.051,2.609,23.642,19.478,22.86,4.164,3.382,0.782,6.225,5.443,2.061,-0.063,0.0518651
2815,2187.947,2274.95,13.1452,-26.59572,20.813,0.087,20.613,0.0218172,0.0218255,20.613,2.138,0.9623,-0.2828,1.003,343.6243,253.6243,9.85,-2.9208,0.92009,0.4174,3.8307,4.2522,0,0.4787,-3.3501,3.709,4.715,3.934,3.667,3.679,10.779,6.553,10.937,10.39,10.065,8.708,6.347,6.721,6.431,6.035,5.848,25.547,21.321,18.477,18.447,4.226,7.07,2.844,7.1,2.874,25.705,20.616,24.833,5.089,4.217,0.872,7.228,6.356,2.139,0.03,0.00316145
4577,2319.288,2595.513,13.1153,-26.5657,20.09,0.072,19.89,0.042462,0.0424934,19.889,1.948,1.0108,-0.2302,1.0367,347.1694,257.1694,9.2,-2.9208,1.14851,0.5764,3.8865,4.4135,0,0.4787,-2.6643,3.306,4.24,3.382,3.366,3.437,8.545,5.64,8.656,8.238,7.92,6.918,5.496,5.761,5.526,5.249,5.12,23.313,20.408,18.074,18.205,2.905,5.239,2.334,5.108,2.203,23.424,19.888,22.688,3.536,2.8,0.736,5.35,4.614,1.814,-0.131,0.134004
1557,1143.926,2090.327,13.2807,-26.576,20.516,0.072,20.316,0.0286814,0.0286957,20.315,1.883,1.5701,0.3881,1.6173,13.884,283.884,9.0,-2.9208,1.11653,0.4562,3.8694,4.453,0,0.4787,-2.3667,3.599,4.565,3.725,3.626,3.674,9.4,6.092,9.505,9.051,8.73,7.598,5.93,6.227,5.971,5.662,5.517,24.168,20.86,18.367,18.442,3.308,5.801,2.493,5.726,2.418,24.273,20.285,23.498,3.988,3.213,0.775,5.906,5.131,1.918,-0.075,0.0460981
3134,1386.196,2318.552,13.2413,-26.5603,20.781,0.084,20.581,0.0224698,0.0224786,20.581,2.075,0.546,1.5084,1.6042,70.1004,340.1004,9.7,-2.9208,0.966891,0.4045,3.8424,4.334,0,0.4787,-2.5267,3.735,4.734,3.933,3.705,3.731,10.409,6.477,10.543,10.028,9.703,8.408,6.286,6.635,6.355,5.987,5.813,25.177,21.245,18.503,18.499,3.932,6.674,2.742,6.678,2.746,25.311,20.581,24.471,4.73,3.89,0.84,6.808,5.968,2.078,0.004,0.00299995
178,1902.836,1396.123,13.2178,-26.6809,20.115,0.066,19.915,0.0414954,0.0415254,19.914,1.954,1.3457,1.3829,1.9296,45.7807,315.7807,9.5,-2.9208,1.08685,0.6037,3.8748,4.3151,0,0.4787,-3.3119,3.225,4.197,3.331,3.268,3.325,8.893,5.709,8.999,8.557,8.237,7.147,5.552,5.842,5.589,5.288,5.145,23.661,20.477,17.993,18.093,3.184,5.668,2.484,5.568,2.384,23.767,19.913,23.005,3.854,3.092,0.762,5.774,5.012,1.92,-0.1,0.0340147
4616,1700.089,2606.652,13.1905,-26.5408,20.62,0.121,20.42,0.0260615,0.0260734,20.42,2.01,-1.203,0.1723,1.2153,171.8479,81.8479,9.45,-2.9208,1.04052,0.4335,3.857,4.3952,0,0.4787,-2.4545,3.655,4.645,3.818,3.653,3.69,9.867,6.275,9.981,9.5,9.178,7.966,6.1,6.421,6.153,5.818,5.66,24.635,21.043,18.423,18.458,3.592,6.212,2.62,6.177,2.585,24.749,20.428,23.946,4.321,3.518,0.803,6.326,5.523,2.005,-0.035,0.00943391
5001,2211.662,2809.825,13.1193,-26.5382,20.911,0.111,20.711,0.0199343,0.0199412,20.711,2.084,1.2334,-0.468,1.3192,339.2211,249.2211,9.6,-2.9208,0.9765,0.3444,3.8413,4.394,0,0.4787,-2.4224,3.888,4.881,4.09,3.856,3.88,10.577,6.623,10.713,10.194,9.87,8.567,6.431,6.781,6.502,6.132,5.958,25.345,21.391,18.656,18.648,3.954,6.689,2.735,6.697,2.743,25.481,20.726,24.638,4.755,3.912,0.843,6.825,5.982,2.07,0.008,0.020518
2312,2142.685,2209.3,13.1535,-26.6012,20.218,0.084,20.018,0.0377398,0.0377647,20.017,2.068,0.9232,0.0323,0.9238,2.0021,272.0021,9.7,-2.9208,1.01397,0.5964,3.8573,4.2221,0,0.4787,-2.9667,3.24,4.247,3.396,3.242,3.281,9.472,5.9,9.586,9.11,8.788,7.589,5.725,6.048,5.778,5.441,5.28,24.24,20.668,18.008,18.049,3.572,6.232,2.66,6.191,2.619,24.354,20.048,23.556,4.306,3.508,0.798,6.346,5.548,2.04,-0.041,0.0417731
1582,1889.428,2095.634,13.1894,-26.6039,19.761,0.073,19.561,0.057491,0.0575487,19.56,1.906,1.3976,0.1753,1.4086,7.1489,277.1489,9.55,-2.9208,1.10242,0.7125,3.8806,4.2355,0,0.4787,-2.5474,2.952,3.917,3.035,3.007,3.074,8.365,5.389,8.478,8.055,7.737,6.721,5.241,5.517,5.274,4.985,4.848,23.133,20.157,17.72,17.842,2.976,5.413,2.437,5.291,2.315,23.246,19.616,22.505,3.63,2.889,0.741,5.526,4.785,1.896,-0.122,0.0568864
1908,1885.526,2154.133,13.1873,-26.5974,19.768,0.076,19.568,0.0571216,0.0571785,19.567,2.579,1.3047,1.1289,1.7253,40.8682,310.8682,9.55,-2.9208,1.17722,1.0412,3.7862,3.5571,0,0.4787,-3.6847,2.199,3.327,2.54,2.081,2.028,11.455,5.652,11.763,11.087,10.757,9.211,5.373,5.887,5.53,4.997,4.759,26.223,20.42,16.967,16.796,5.803,9.256,3.453,9.427,3.624,26.531,19.527,25.525,7.004,5.998,1.006,9.564,8.558,2.56,0.171,0.0442827
2280,1936.798,2205.35,13.17886,-26.5937,19.861,0.06,19.661,0.0524324,0.0524804,19.66,2.496,0.3715,1.6126,1.6548,77.0285,347.0285,9.65,-2.9208,1.10494,0.9614,3.7869,3.6122,0,0.4787,-3.6545,2.398,3.519,2.737,2.282,2.231,11.583,5.828,11.888,11.213,10.883,9.34,5.551,6.06,5.707,5.177,4.94,26.351,20.596,17.166,16.999,5.755,9.185,3.43,9.352,3.597,26.656,19.708,25.651,6.948,5.943,1.005,9.49,8.485,2.542,0.167,0.0664832
2419,1715.597,2223.479,13.2051,-26.5833,19.346,0.069,19.146,0.0842558,0.0843798,19.144,1.704,0.0231,1.9539,1.954,89.3224,359.3224,9.35,-2.9208,1.2239,0.8243,3.9103,4.2879,0,0.4787,-2.6468,2.726,3.601,2.718,2.825,2.929,6.899,4.793,7.066,6.7,6.413,5.687,4.685,4.879,4.709,4.486,4.387,21.667,19.561,17.494,17.697,2.106,4.173,2.067,3.97,1.864,21.834,19.155,21.181,2.679,2.026,0.653,4.34,3.687,1.661,-0.203,0.0443849
2464,1748.304,2228.219,13.2009,-26.584,20.548,0.072,20.348,0.0278484,0.0278619,20.347,2.088,0.665,0.1173,0.6752,10.0046,280.0046,9.75,-2.9208,0.974812,0.5071,3.8467,4.2517,0,0.4787,-3.3678,3.472,4.479,3.658,3.451,3.482,10.033,6.203,10.16,9.657,9.333,8.066,6.017,6.359,6.081,5.721,5.551,24.801,20.971,18.24,18.25,3.83,6.561,2.731,6.551,2.721,24.928,20.319,24.101,4.609,3.782,0.827,6.688,5.861,2.079,-0.01,0.029411
2681,1855.572,2256.755,13.18658,-26.585,18.878,0.047,18.678,0.129658,0.129952,18.676,2.023,0.0395,0.6336,0.6348,86.4353,356.4353,9.4,-2.9208,1.27995,1.1245,3.8887,3.9207,0,0.4787,-3.0107,1.913,2.896,1.953,1.992,2.079,7.018,4.352,7.147,6.747,6.434,5.523,4.216,4.468,4.249,3.976,3.844,21.786,19.12,16.681,16.847,2.666,5.105,2.439,4.939,2.273,21.915,18.612,21.202,3.303,2.59,0.713,5.234,4.521,1.931,-0.166,0.112072
3120,1983.197,2315.857,13.1684,-26.5834,20.373,0.071,20.173,0.032719,0.0327377,20.172,2.047,0.2646,0.7881,0.8313,71.4383,341.4383,9.7,-2.9208,1.00338,0.552,3.8547,4.2514,0,0.4787,-3.3768,3.353,4.358,3.517,3.349,3.386,9.648,6.023,9.764,9.282,8.96,7.747,5.846,6.173,5.901,5.56,5.397,24.416,20.791,18.121,18.154,3.625,6.295,2.67,6.262,2.637,24.532,20.165,23.728,4.367,3.563,0.804,6.411,5.607,2.044,-0.033,0.00761656
3337,1925.474,2345.524,13.1742,-26.578,19.96,0.055,19.76,0.047863,0.047903,19.759,1.704,0.8002,0.8107,1.1391,45.3733,315.3734,9.0,-2.9208,1.19108,0.5998,3.8964,4.4456,0,0.4787,-2.5322,3.264,4.162,3.311,3.338,3.421,8.107,5.472,8.233,7.835,7.524,6.617,5.34,5.583,5.364,5.107,4.989,22.875,20.24,18.032,18.189,2.635,4.843,2.208,4.686,2.051,23.001,19.757,22.292,3.244,2.535,0.709,4.969,4.26,1.725,-0.157,0.0210951
3819,1790.646,2419.385,13.1875,-26.5648,19.639,0.053,19.439,0.064328,0.0644002,19.438,1.747,1.6232,0.965,1.8884,30.732,300.732,9.4,-2.9208,1.16351,0.7268,3.8971,4.3107,0,0.4787,-2.9237,2.941,3.852,2.976,3.021,3.109,7.717,5.171,7.852,7.459,7.151,6.275,5.042,5.278,5.068,4.814,4.696,22.485,19.939,17.709,17.877,2.546,4.776,2.23,4.608,2.062,22.62,19.464,21.919,3.156,2.455,0.701,4.911,4.21,1.755,-0.168,0.0272032
3862,1552.955,2427.242,13.2162,-26.55482,19.901,0.078,19.701,0.0505359,0.0505804,19.7,1.916,1.674,1.2554,2.0924,36.8664,306.8664,9.55,-2.9208,1.09175,0.6787,3.8782,4.2554,0,0.4787,-3.3606,3.036,4.005,3.128,3.086,3.15,8.549,5.495,8.659,8.229,7.911,6.867,5.343,5.625,5.378,5.084,4.944,23.317,20.263,17.804,17.918,3.054,5.513,2.459,5.399,2.345,23.427,19.712,22.679,3.715,2.967,0.748,5.623,4.875,1.908,-0.114,0.0144216
3946,1905.194,2440.324,13.1726,-26.5668,20.037,0.065,19.837,0.0445862,0.0446208,19.836,1.947,0.4247,1.7543,1.805,76.391,346.391,9.6,-2.9208,1.06562,0.6508,3.8713,4.2455,0,0.4787,-3.0865,3.102,4.087,3.215,3.139,3.193,8.863,5.632,8.97,8.525,8.205,7.106,5.472,5.769,5.512,5.204,5.057,23.631,20.4,17.87,17.961,3.231,5.761,2.53,5.67,2.439,23.738,19.825,22.973,3.913,3.148,0.765,5.868,5.103,1.955,-0.091,0.0136018
1672,1988.221,2114.675,13.1765,-26.6056,20.203,0.066,20.003,0.0382648,0.03829038,20.002,2.357,1.79,1.2977,2.2109,35.9404,305.9404,9.85,-2.9208,0.968276,0.7472,3.8073,3.8505,0,0.4787,-3.2584,2.899,3.961,3.179,2.824,2.808,10.979,6.038,11.203,10.593,10.265,8.807,5.798,6.236,5.916,5.454,5.239,25.747,20.806,17.667,17.576,4.941,8.08,3.139,8.171,3.23,25.971,20.007,25.033,5.964,5.026,0.938,8.304,7.366,2.34,0.091,0.0177199
1676,1964.684,2115.804,13.1793,-26.6046,20.166,0.072,19.966,0.0395913,0.0396187,19.965,1.967,0.3106,-0.4975,0.5865,301.9777,211.9777,9.55,-2.9208,1.06706,0.591,3.8703,4.3017,0,0.4787,-2.7892,3.254,4.235,3.373,3.287,3.339,9.039,5.778,9.146,8.698,8.378,7.267,5.617,5.914,5.658,5.348,5.202,23.807,20.546,18.022,18.107,3.261,5.785,2.524,5.7,2.439,23.914,19.97,23.146,3.944,3.176,0.768,5.892,5.124,1.948,-0.085,0.0196469
1913,1616.998,2154.937,13.22012,-26.587,20.54,0.082,20.34,0.0280543,0.0280681,20.339,1.905,0.6724,-0.5686,0.8806,319.7791,229.7791,9.15,-2.9208,1.09337,0.4423,3.8639,4.436,0,0.4787,-2.6276,3.633,4.611,3.777,3.647,3.689,9.615,6.183,9.723,9.258,8.937,7.769,6.016,6.323,6.062,5.741,5.591,24.383,20.951,18.401,18.457,3.432,5.982,2.55,5.926,2.494,24.491,20.359,23.705,4.132,3.346,0.786,6.09,5.304,1.958,-0.056,0.0566478
2764,1772.402,2268.304,13.19625,-26.5806,20.163,0.095,19.963,0.0397009,0.0397284,19.962,2.058,1.626,1.0031,1.9105,31.6716,301.6716,9.7,-2.9208,1.01983,0.6238,3.8581,4.2003,0,0.4787,-2.7102,3.17,4.18,3.324,3.174,3.215,9.387,5.831,9.5,9.026,8.703,7.51,5.657,5.979,5.708,5.373,5.213,24.155,20.599,17.938,17.983,3.556,6.217,2.661,6.172,2.616,24.268,19.981,23.471,4.287,3.49,0.797,6.33,5.533,2.043,-0.045,0.0242076
3723,1911.768,2403.879,13.1734,-26.57108,20.767,0.075,20.567,0.0227615,0.0227705,20.567,2.57,1.3404,1.4908,2.0048,48.041,318.041,9.9,-2.9208,0.942989,0.7425,3.7701,3.6948,0,0.4787,-3.4587,2.979,4.157,3.38,2.823,2.737,13.164,6.654,13.55,12.814,12.483,10.877,6.343,6.922,6.538,5.941,5.695,27.932,21.422,17.747,17.505,6.51,10.185,3.675,10.427,3.917,28.318,20.463,27.251,7.855,6.788,1.067,10.571,9.504,2.716,0.242,0.179254
3843,1743.969,2423.084,13.1931,-26.5626,20.97,0.137,20.77,0.0188799,0.0188861,20.77,2.129,-0.2198,-0.0161,0.2204,184.1846,94.1846,9.8,-2.9208,0.923554,0.3537,3.8304,4.3166,0,0.4787,-2.7045,3.871,4.871,4.099,3.828,3.838,10.939,6.704,11.098,10.55,10.224,8.862,6.498,6.871,6.583,6.186,6.0,25.707,21.472,18.639,18.606,4.235,7.068,2.833,7.101,2.866,25.866,20.768,24.992,5.098,4.224,0.874,7.227,6.353,2.129,0.033,0.00200046
2819,1763.663,2276.544,13.197,-26.5793,20.085,0.09,19.885,0.042658,0.0426897,19.884,1.661,0.682,0.9414,1.1625,54.0791,324.0791,9.85,-2.9208,1.22095,0.55,3.8967,4.5076,7,0.0,-4.8448,3.393,4.281,3.443,3.465,3.546,8.241,5.583,8.366,7.966,7.654,6.738,5.45,5.695,5.473,5.216,5.099,23.009,20.351,18.161,18.314,2.658,4.848,2.19,4.695,2.037,23.134,19.867,22.422,3.267,2.555,0.712,4.973,4.261,1.706,-0.153,0.0481043
3054,1786.853,2308.219,13.1928,-26.5768,19.496,0.065,19.296,0.0733838,0.0734777,19.295,1.807,1.0331,0.6209,1.2053,31.0041,301.0041,9.45,-2.9208,1.18685,0.8244,3.8926,4.2038,0,0.4787,-2.662,2.684,3.623,2.727,2.76,2.844,7.63,4.997,7.76,7.362,7.051,6.148,4.864,5.11,4.892,4.629,4.505,22.398,19.765,17.452,17.612,2.633,4.946,2.313,4.786,2.153,22.528,19.273,21.819,3.255,2.546,0.709,5.076,4.367,1.821,-0.16,0.0260769
3277,1858.482,2336.699,13.1828,-26.5764,20.39,0.1,20.19,0.0322107,0.0322288,20.189,2.102,0.5444,0.12,0.5575,12.4277,282.4276,9.75,-2.9208,0.984656,0.5516,3.8492,4.2215,0,0.4787,-2.9683,3.357,4.366,3.534,3.341,3.375,9.828,6.075,9.951,9.457,9.133,7.889,5.891,6.228,5.952,5.598,5.43,24.596,20.843,18.125,18.143,3.753,6.471,2.718,6.453,2.7,24.719,20.198,23.901,4.521,3.703,0.818,6.594,5.776,2.073,-0.018,0.0303647
3676,1962.836,2396.723,13.1675,-26.5738,20.198,0.082,19.998,0.0384415,0.0384672,19.997,1.905,1.0184,0.5233,1.145,27.1973,297.1973,9.45,-2.9208,1.08685,0.5621,3.8726,4.3479,0,0.4787,-2.6986,3.33,4.301,3.443,3.367,3.421,9.05,5.822,9.156,8.71,8.39,7.286,5.663,5.957,5.702,5.397,5.254,23.818,20.59,18.098,18.189,3.228,5.72,2.492,5.629,2.401,23.924,20.022,23.158,3.902,3.136,0.766,5.826,5.06,1.924,-0.091,0.0314009
3937,1955.859,2438.564,13.1665,-26.569,20.916,0.089,20.716,0.0198427,0.0198495,20.716,2.089,0.5702,0.7399,0.9341,52.3802,322.3802,9.75,-2.9208,0.939361,0.3559,3.8344,4.3382,0,0.4787,-2.5098,3.861,4.86,4.079,3.823,3.839,10.767,6.657,10.915,10.381,10.056,8.723,6.457,6.821,6.536,6.15,5.969,25.535,21.425,18.629,18.607,4.11,6.906,2.796,6.928,2.818,25.683,20.737,24.824,4.946,4.087,0.859,7.054,6.195,2.108,0.022,0.0283199
3982,1762.435,2447.023,13.1898,-26.56066,21.149,0.125,20.949,0.0160103,0.0160148,20.949,2.307,-0.0748,0.4313,0.4378,99.8412,9.8412,9.9,-2.9208,0.878839,0.292,3.8192,4.3121,0,0.4787,-2.605,4.034,5.044,4.29,3.975,3.972,11.475,6.965,11.66,11.084,10.757,9.351,6.745,7.142,6.845,6.42,6.223,26.243,21.733,18.802,18.74,4.51,7.441,2.931,7.503,2.993,26.428,20.991,25.525,5.437,4.534,0.903,7.626,6.723,2.189,0.062,0.125252
3999,1969.585,2449.817,13.1643,-26.5683,20.84,0.088,20.64,0.0212814,0.0212893,20.64,2.002,0.7247,-0.2965,0.783,337.749,247.749,9.25,-2.9208,1.04225,0.3548,3.8507,4.4499,0,0.4787,-2.2593,3.857,4.844,4.037,3.842,3.873,10.237,6.51,10.358,9.863,9.539,8.291,6.329,6.659,6.388,6.04,5.877,25.005,21.278,18.625,18.641,3.727,6.38,2.653,6.364,2.637,25.126,20.645,24.307,4.481,3.662,0.819,6.501,5.682,2.02,-0.016,0.0186816
1838,1907.021,2143.308,13.1852,-26.5994,20.894,0.1,20.694,0.0202488,0.020256,20.694,2.218,0.1898,0.4439,0.4828,66.8552,336.8552,9.9,-2.9208,0.89953,0.4047,3.8243,4.2294,0,0.4787,-3.236,3.744,4.757,3.985,3.694,3.698,11.023,6.644,11.194,10.633,10.307,8.924,6.431,6.818,6.524,6.111,5.918,25.791,21.412,18.512,18.466,4.379,7.279,2.9,7.325,2.946,25.962,20.686,25.075,5.276,4.389,0.887,7.45,6.563,2.174,0.046,0.0447213
2278,1799.33,2205.169,13.1957,-26.5885,20.076,0.078,19.876,0.043013,0.0430453,19.875,1.957,-0.1118,0.1201,0.1641,132.9667,42.9667,9.6,-2.9208,1.0597,0.6287,3.8698,4.2591,0,0.4787,-2.9808,3.158,4.144,3.276,3.19,3.243,8.96,5.697,9.067,8.62,8.299,7.19,5.536,5.834,5.577,5.266,5.118,23.728,20.465,17.926,18.011,3.263,5.802,2.539,5.717,2.454,23.835,19.886,23.067,3.949,3.181,0.768,5.909,5.141,1.96,-0.085,0.0114017
3713,1868.216,2402.022,13.17879,-26.5696,19.701,0.048,19.501,0.0607575,0.0608219,19.5,1.985,-0.4794,-2.2352,2.2861,257.8941,167.8941,9.6,-2.9208,1.10602,0.8153,3.8771,4.1198,0,0.4787,-2.6897,2.687,3.674,2.777,2.739,2.804,8.249,5.195,8.36,7.932,7.613,6.576,5.042,5.327,5.078,4.78,4.637,23.017,19.963,17.455,17.572,3.054,5.562,2.508,5.445,2.391,23.128,19.405,22.381,3.723,2.976,0.747,5.673,4.926,1.95,-0.117,0.101242
3761,1818.182,2409.816,13.1846,-26.5669,19.933,0.064,19.733,0.0490682,0.0491102,19.732,1.963,0.3693,-6.3697,6.3804,273.3182,183.3182,9.6,-2.9208,1.07525,0.686,3.8736,4.2231,0,0.4787,-2.9657,3.014,3.997,3.12,3.056,3.114,8.715,5.531,8.822,8.382,8.062,6.977,5.373,5.666,5.412,5.107,4.962,23.483,20.299,17.782,17.882,3.184,5.701,2.517,5.601,2.417,23.59,19.73,22.83,3.86,3.1,0.76,5.808,5.048,1.948,-0.1,0.0151329
3895,1902.437,2430.533,13.1734,-26.5678,20.491,0.099,20.291,0.0293495,0.0293645,20.29,2.058,2.5071,-1.0181,2.7059,337.8989,247.8989,9.75,-2.9208,0.976881,0.5162,3.8472,4.2459,0,0.4787,-3.0904,3.448,4.456,3.633,3.428,3.46,9.99,6.177,10.116,9.615,9.292,8.03,5.991,6.332,6.054,5.696,5.526,24.758,20.945,18.216,18.228,3.813,6.542,2.729,6.53,2.717,24.884,20.294,24.06,4.59,3.766,0.824,6.668,5.844,2.078,-0.012,0.0203958
4013,1899.317,2454.703,13.1727,-26.56505,20.446,0.094,20.246,0.0305914,0.0306078,20.245,2.215,2.8184,-0.3499,2.84,352.9235,262.9235,9.9,-2.9208,0.929295,0.6122,3.8208,4.022,0,0.4787,-2.8928,3.222,4.256,3.468,3.169,3.17,10.671,6.194,10.849,10.283,9.957,8.566,5.975,6.374,6.071,5.65,5.449,25.439,20.962,17.99,17.938,4.477,7.449,2.972,7.501,3.024,25.617,20.217,24.725,5.4,4.508,0.892,7.627,6.735,2.227,0.052,0.0304639
2068,1759.477,2176.02,13.2018,-26.5902,19.888,0.08,19.688,0.0511446,0.0511903,19.687,2.069,4.4202,1.4502,4.652,18.164,288.164,9.7,-2.9208,1.04023,0.722,3.8596,4.1165,0,0.4787,-2.6514,2.921,3.939,3.069,2.929,2.972,9.116,5.593,9.228,8.758,8.436,7.255,5.42,5.741,5.47,5.137,4.977,23.884,20.361,17.689,17.74,3.523,6.195,2.672,6.144,2.621,23.996,19.745,23.204,4.251,3.459,0.792,6.307,5.515,2.056,-0.051,0.0594388
2260,1757.702,2202.205,13.2009,-26.5872,19.77,0.064,19.57,0.0570164,0.0570731,19.569,2.079,3.1325,4.2867,5.3093,53.843,323.843,9.7,-2.9208,1.05089,0.7855,3.8536,4.0336,0,0.4787,-2.8969,2.76,3.788,2.92,2.758,2.798,9.123,5.492,9.24,8.761,8.439,7.236,5.312,5.645,5.368,5.023,4.856,23.891,20.26,17.528,17.566,3.631,6.363,2.732,6.325,2.694,24.008,19.624,23.207,4.384,3.583,0.801,6.48,5.679,2.096,-0.038,0.0575671
2500,1886.396,2234.299,13.1838,-26.5886,20.919,0.14,20.719,0.0197879,0.0197947,20.719,2.006,-2.2647,6.417,6.8049,109.4387,19.4387,9.35,-2.9208,1.0178,0.3285,3.846,4.4467,0,0.4787,-2.3129,3.928,4.916,4.121,3.902,3.93,10.48,6.62,10.609,10.099,9.775,8.491,6.433,6.774,6.498,6.139,5.971,25.248,21.388,18.696,18.698,3.86,6.552,2.692,6.55,2.69,25.377,20.739,24.543,4.638,3.804,0.834,6.681,5.847,2.043,-0.002,0.0420595
3100,1760.802,2314.171,13.1957,-26.5751,20.367,0.113,20.167,0.0329003,0.0329192,20.166,2.446,-0.9598,-1.8935,2.1229,243.1205,153.1205,9.9,-2.9208,0.938577,0.7055,3.7998,3.8487,0,0.4787,-3.2574,3.018,4.09,3.32,2.928,2.899,11.441,6.239,11.693,11.059,10.73,9.24,5.986,6.445,6.118,5.632,5.409,26.209,21.007,17.786,17.667,5.202,8.423,3.221,8.542,3.34,26.461,20.177,25.498,6.284,5.321,0.963,8.675,7.712,2.391,0.119,0.0560892
3368,1836.189,2348.852,13.18499,-26.5742,20.102,0.079,19.902,0.0419952,0.042026,19.901,2.083,-2.5165,-0.5796,2.5823,192.9699,102.9699,9.75,-2.9208,1.00912,0.6781,3.8512,4.1136,0,0.4787,-2.6508,3.034,4.054,3.203,3.025,3.062,9.457,5.763,9.576,9.09,8.767,7.544,5.581,5.916,5.639,5.289,5.121,24.225,20.531,17.802,17.83,3.694,6.423,2.729,6.395,2.701,24.344,19.889,23.535,4.455,3.646,0.809,6.542,5.733,2.087,-0.028,0.0126482
3165,1899.178,2321.974,13.1784,-26.57955,19.624,0.054,19.424,0.0652229,0.0652971,19.423,2.163,4.6958,-1.0007,4.8013,347.9705,257.9705,9.65,-2.9208,1.09304,0.888,3.8494,3.9311,0,0.4787,-3.1723,2.502,3.541,2.671,2.493,2.531,9.027,5.292,9.149,8.662,8.339,7.114,5.107,5.45,5.167,4.811,4.639,23.795,20.06,17.27,17.299,3.735,6.525,2.79,6.496,2.761,23.917,19.407,23.107,4.51,3.7,0.81,6.647,5.837,2.137,-0.029,0.0305289
3055,1901.833,2308.05,13.17872,-26.5812,20.546,0.081,20.346,0.02789973,0.0279133,20.345,2.163,-0.0877,2.917,2.9184,91.7216,1.7216,9.9,-2.9208,0.921244,0.5463,3.826,4.105,0,0.4787,-2.6535,3.385,4.407,3.619,3.338,3.346,10.643,6.296,10.81,10.254,9.928,8.555,6.084,6.47,6.174,5.766,5.572,25.411,21.064,18.153,18.114,4.347,7.258,2.911,7.297,2.95,25.578,20.34,24.696,5.238,4.356,0.882,7.425,6.543,2.187,0.039,0.0245151
3089,1830.638,2316.17,13.1871,-26.5776,21.063,0.124,20.863,0.0173301,0.0173353,20.863,1.966,-1.0774,-5.4587,5.564,258.8349,168.8349,9.0,-2.9208,1.03528,0.2872,3.8438,4.487,0,0.4787,-2.0015,4.034,5.019,4.234,4.004,4.029,10.645,6.733,10.778,10.262,9.937,8.639,6.544,6.888,6.612,6.248,6.078,25.413,21.501,18.802,18.797,3.912,6.611,2.699,6.616,2.704,25.546,20.846,24.705,4.7,3.859,0.841,6.744,5.903,2.044,0.005,0.0798313
2121,1901.125,2182.744,13.1842,-26.5948,20.346,0.1,20.146,0.0335429,0.0335625,20.145,1.852,-2.1654,1.9233,2.8962,138.388,48.388,9.05,-2.9208,1.13628,0.5062,3.8778,4.4443,0,0.4787,-2.369,3.476,4.427,3.578,3.522,3.58,9.011,5.892,9.117,8.68,8.361,7.287,5.739,6.021,5.774,5.48,5.343,23.779,20.66,18.244,18.348,3.119,5.535,2.416,5.431,2.312,23.885,20.111,23.129,3.774,3.018,0.756,5.641,4.885,1.867,-0.104,0.0371622
2694,1793.125,2257.927,13.1942,-26.5825,20.73,0.106,20.53,0.0235505,0.0235602,20.53,1.973,4.2096,3.1024,5.2293,36.3895,306.3895,9.0,-2.9208,1.08685,0.3965,3.8582,4.4564,0,0.4787,-2.2758,3.75,4.734,3.912,3.75,3.786,9.925,6.348,10.037,9.557,9.234,8.023,6.174,6.492,6.226,5.893,5.737,24.693,21.116,18.518,18.554,3.577,6.175,2.598,6.139,2.562,24.805,20.505,24.002,4.3,3.497,0.803,6.287,5.484,1.987,-0.036,0.0286537
2215,1767.643,2199.623,13.1998,-26.5879,19.834,0.097,19.634,0.0537527,0.0538031,19.633,1.821,1.2464,-3.0847,3.3269,292.0017,202.0017,9.45,-2.9208,1.13093,0.6902,3.8888,4.3017,0,0.4787,-3.3569,3.019,3.959,3.082,3.085,3.162,8.18,5.36,8.296,7.884,7.568,6.597,5.22,5.479,5.249,4.975,4.847,22.948,20.128,17.787,17.93,2.82,5.161,2.341,5.018,2.198,23.064,19.615,22.336,3.449,2.721,0.728,5.277,4.549,1.828,-0.143,0.0193127